File: data.csv
ID,MA,FA,Cs,Avg Mass of A,Radius of A,Pb,Sn,Avg Mass of B,Radius of B,Br,Cl,I,Radius of X,Tolerance Factor,New Tolerance Factor,Octahedral Factor,Band gap,Del H,Del L,Voc,Jsc,FF,PCE,REF
1,1,0,0,32.065,2.7,1,0,207,1.18,0,0,1,2.06,1.03884,3.51009,0.572816,1.5,0.15,0.2,1.11,24,0.78,20.7,1
2,1,0,0,32.065,2.7,1,0,207,1.18,0,0,1,2.06,1.03884,3.51009,0.572816,1.5,0.3,0,1.07,22.6,0.806,19.5,2
3,0.15,0.85,0,42.2412,2.7765,1,0,207,1.18,0.15,0,0.85,2.024,1.05945,3.46508,0.583004,1.55,0.4,0.18,1.03,23.7,0.79,19.2,3
4,0.17,0.83,0,42.00176,2.7747,1,0,207,1.18,0.4,0.6,0,1.814,1.08373,3.28742,0.650496,1.72,0.4,0.18,1.12,17.1,0.66,12.6,3
5,0.15,0.85,0,42.2412,2.7765,1,0,207,1.18,0.15,0,0.85,2.024,1.05945,3.46508,0.583004,1.55,0.4,0.18,1.14,23.7,0.78,21,3
6,0.15,0.8075,0,40.3696,2.657925,1,0,207,1.18,0.15,0,0.835833,1.99482,1.03628,3.4644,0.591533,1.62,0.64,0.37,1.21,22.5,0.79,21.51,4
7,0.15,0.8075,0,40.3696,2.657925,1,0,207,1.18,0.15,0,0.835833,1.99482,1.03628,3.4644,0.591533,1.62,0.84,0.57,1.1,22.56,0.785,19.48,4
8,1,0,0,32.065,2.7,1,0,207,1.18,0,0,1,2.06,1.03884,3.51009,0.572816,1.59,0.4,0.3,1.03,23.51,0.83,20.1,5
9,1,0,0,32.065,2.7,1,0,207,1.18,0,0.05,0.95,2.0475,1.04012,3.4995,0.576313,1.55,0.1,0.47,0.92,22.4,0.82,18,6
10,0.25,0.7,0.05,45.4874,2.7185,1,0,207,1.18,0,0,1,2.06,1.04287,3.50626,0.572816,1.56,0.19,0.47,1.08,24.35,0.766,20.5,7
11,0.17,0.83,0,42.00176,2.7747,1.1,0,227.7,1.298,0.16,0,0.933,2.21318,1.0045,3.51884,0.586486,1.5,0.14,0,1.17,22.7,0.8,21.2,8
12,0.17,0.83,0,42.00176,2.7747,1.1,0,227.7,1.298,0.167,0,0.933,2.22592,1.00342,3.52866,0.58313,1.5,0.1,0,1.17,22.2,0.77,19.8,8
13,0.17,0.83,0,42.00176,2.7747,1.1,0,227.7,1.298,0.167,0,0.933,2.22592,1.00342,3.52866,0.58313,1.5,0.1,0,1.16,22.5,0.68,17.6,8
14,0.17,0.83,0,42.00176,2.7747,1.1,0,227.7,1.298,0.167,0,0.933,2.22592,1.00342,3.52866,0.58313,1.5,0.2,0,1.15,21.5,0.76,18.9,8
15,0.17,0.83,0,42.00176,2.7747,1.1,0,227.7,1.298,0.167,0,0.933,2.22592,1.00342,3.52866,0.58313,1.5,0.3,0,1.13,22.6,0.71,18.5,8
16,0.17,0.83,0,42.00176,2.7747,1.1,0,227.7,1.298,0.167,0,0.933,2.22592,1.00342,3.52866,0.58313,1.5,0.14,0.2,1.1,22.3,0.78,19,8
17,0.17,0.83,0,42.00176,2.7747,1.1,0,227.7,1.298,0.167,0,0.933,2.22592,1.00342,3.52866,0.58313,1.5,0.14,0.2,1.06,21.4,0.77,17.5,8
18,0.17,0.83,0,42.00176,2.7747,1.1,0,227.7,1.298,0.167,0,0.933,2.22592,1.00342,3.52866,0.58313,1.5,0.14,0,1,21.2,0.69,14.5,8
19,1,0,0,32.065,2.7,1,0,207,1.18,0,0,1,2.06,1.03884,3.51009,0.572816,1.5,0.4,0.2,0.946,17.51,0.671,11.11,9
20,0.15,0.85,0,42.2412,2.7765,1,0,207,1.18,0.15,0,0.85,2.024,1.05945,3.46508,0.583004,1.63,0.22,0.18,1.145,23.28,0.76,20.61,10
21,1,0,0,32.065,2.7,1,0,207,1.18,0,0,1,2.06,1.03884,3.51009,0.572816,1.5,0.15,0.3,1.071,20.62,0.748,16.2,11
22,0.14,0.81,0.05,46.80432,2.7284,1,0,207,1.18,0.15,0,0.85,2.024,1.04883,3.47379,0.583004,1.6,0.78,0,1.189,22.3,0.806,21.4,12
23,1,0,0,32.065,2.7,1,0,207,1.18,0,0,1,2.06,1.03884,3.51009,0.572816,1.5,0.29,0.3,1.12,21.77,0.731,19.35,13
24,1,0,0,32.065,2.7,1,0,207,1.18,0,0,1,2.06,1.03884,3.51009,0.572816,1.5,0.51,0.3,1.061,20.68,0.731,16.04,13
25,1,0,0,32.065,2.7,1,0,207,1.18,0,0,1,2.06,1.03884,3.51009,0.572816,1.5,0.2,0.2,1.036,19.85,0.76,16.37,14
26,1,0,0,32.065,2.7,1,0,207,1.18,0,0.05,0.95,2.0475,1.04012,3.4995,0.576313,1.63,0.28,0.27,0.94,21.76,0.7,14.36,15
27,0.15,0.85,0,42.2412,2.7765,1,0,207,1.18,0.15,0,0.85,2.024,1.05945,3.46508,0.583004,1.72,0.4,0.18,1.08,22,0.7,17.3,16
28,1,0,0,32.065,2.7,1,0,207,1.18,0,0,1,2.06,1.03884,3.51009,0.572816,1.5,0.4,0.1,0.99,19.82,0.7,13.61,16
29,0,1,0,44.037,2.79,1,0,207,1.18,0,0,1,2.06,1.05848,3.49339,0.572816,1.5,0.47,0.12,0.88,22,0.7,13.5,16
30,1,0,0,32.065,2.7,1,0,207,1.18,0,0,1,2.06,1.03884,3.51009,0.572816,1.5,0.18,0.15,1.03,22.46,0.741,17.11,17
31,1,0,0,32.065,2.7,1,0,207,1.18,0,0,1,2.06,1.03884,3.51009,0.572816,1.5,0.15,0.3,1.08,20.6,0.766,17,18
32,0.15,0.85,0,42.2412,2.7765,1,0,207,1.18,0.15,0,0.85,2.024,1.05945,3.46508,0.583004,1.73,0.18,0.32,1.09,24.42,0.699,18.56,19
33,0.15,0.85,0,42.2412,2.7765,1,0,207,1.18,0.15,0,0.85,2.024,1.05945,3.46508,0.583004,1.73,0.18,0.43,1.05,20.94,0.69,15.17,19
34,0,0.83,0.17,59.14456,2.6234,1,0,207,1.18,0.4,0,0.6,1.964,1.03174,3.44706,0.600815,1.55,0.26,0.27,1.14,19.8,0.75,16.8,20
35,1,0,0,32.065,2.7,1,0,207,1.18,0,0,1,2.06,1.03884,3.51009,0.572816,1.5,0.1,0.3,1.05,21.9,0.72,16.5,21
36,1,0,0,32.065,2.7,1,0,207,1.18,0,0,1,2.06,1.03884,3.51009,0.572816,1.5,0.4,0.3,0.94,13.8,0.73,8.6,21
37,1,0,0,32.065,2.7,1,0,207,1.18,0,0,1,2.06,1.03884,3.51009,0.572816,1.5,0.4,0.3,0.8,15.1,0.81,9.3,21
38,1,0,0,32.065,2.7,1,0,207,1.18,0,0.05,0.95,2.0475,1.04012,3.4995,0.576313,1.55,0.3,0.2,1.02,20.3,0.72,14.9,22
39,1,0,0,32.065,2.7,1,0,207,1.18,0,0,1,2.06,1.03884,3.51009,0.572816,1.5,0.18,0.3,0.91,20.48,0.61,11.39,23
40,1,0,0,32.065,2.7,1,0,207,1.18,0,0,1,2.06,1.03884,3.51009,0.572816,1.5,0.18,0.3,1.05,21.64,0.741,17.01,24
41,0.16,0.79,0.05,46.56488,2.7266,1,0,207,1.18,0.17,0,0.83,2.0192,1.04895,3.47007,0.58439,1.6,0.45,0.14,1.121,21.34,0.714,17,25
42,0.16,0.79,0.05,46.56488,2.7266,1,0,207,1.18,0.17,0,0.83,2.0192,1.04895,3.47007,0.58439,1.6,0.41,0.14,1.089,22.38,0.725,17.6,25
43,1,0,0,32.065,2.7,1,0,207,1.18,0,0,1,2.06,1.03884,3.51009,0.572816,1.5,0.18,0.3,1.116,19.1,0.754,16.1,26
44,1,0,0,32.065,2.7,1,0,207,1.18,0,0,1,2.06,1.03884,3.51009,0.572816,1.5,0.18,0.2,1.05,21.6,0.67,15.3,27
45,1,0,0,32.065,2.7,1,0,207,1.18,0,0,1,2.06,1.03884,3.51009,0.572816,1.5,0.2,0.3,0.97,21.82,0.73,15.38,28
46,0.15,0.85,0,42.2412,2.7765,1,0,207,1.18,0.15,0,0.85,2.024,1.05945,3.46508,0.583004,1.61,0.61,0.08,1.117,22.7,0.71,17.88,29
47,1,0,0,32.065,2.7,1,0,207,1.18,0,0,1,2.06,1.03884,3.51009,0.572816,1.5,0.18,0.2,0.99,22,0.69,15,30
48,1,0,0,32.065,2.7,1,0,207,1.18,0,0,1,2.06,1.03884,3.51009,0.572816,1.5,0.18,0.2,1.05,22.5,0.8,18.338,31
49,0.15,0.85,0,42.2412,2.7765,1,0,207,1.18,0.15,0,0.85,2.024,1.05945,3.46508,0.583004,1.59,0.16,0.2,1.1,23.2,0.786,20.05,32
50,0.15,0.85,0,42.2412,2.7765,1,0,207,1.18,0.15,0,0.85,2.024,1.05945,3.46508,0.583004,1.59,0.16,0.3,1.1,22.34,0.782,19.23,32
51,1,0,0,32.065,2.7,1,0,207,1.18,0.07,0,0.93,2.0432,1.04056,3.49585,0.577525,1.597,0.2146,0.216,1.065,22.95,0.7,17.11,33
52,1,0,0,32.065,2.7,1,0,207,1.18,0.05,0,0.95,2.048,1.04007,3.49992,0.576172,1.591,0.213,0.213,1.064,23.52,0.72,18.02,33
53,1,0,0,32.065,2.7,1,0,207,1.18,0.04,0,0.96,2.0504,1.03982,3.50195,0.575497,1.585,0.21,0.21,1.052,23.08,0.69,16.75,33
54,1,0,0,32.065,2.7,1,0,207,1.18,0.03,0,0.97,2.0528,1.03957,3.50399,0.574825,1.579,0.207,0.207,1.026,23.04,0.69,16.31,33
55,1,0,0,32.065,2.7,1,0,207,1.18,0,0,1,2.06,1.03884,3.51009,0.572816,1.565,0.2,0.2,1.016,22.92,0.67,15.6,33
56,1,0,0,32.065,2.7,1,0,207,1.18,0.33,0,0.67,1.9808,1.04715,3.44297,0.595719,1.725,0.28,0.28,0.827,7.72,0.6,3.83,33
57,1,0,0,32.065,2.7,1,0,207,1.18,0,0,1,2.06,1.03884,3.51009,0.572816,1.5,0.15,0.3,1.07,22,0.768,18.1,34
58,1,0,0,32.065,2.7,1,0,207,1.18,0,0,1,2.06,1.03884,3.51009,0.572816,1.5,0.2,0.3,0.92,18.6,0.72,12.3,34
59,1,0,0,32.065,2.7,1,0,207,1.18,0,0,1,2.06,1.03884,3.51009,0.572816,1.5,0.18,0.2,1.084,22.2,0.771,18.55,35
60,1,0,0,32.065,2.7,1,0,207,1.18,0,0,1,2.06,1.03884,3.51009,0.572816,1.5,0.18,0.2,1.03,20.4,0.749,15.7,36
61,0.15,0.85,0,42.2412,2.7765,1,0,207,1.18,0.15,0,0.85,2.024,1.05945,3.46508,0.583004,1.6,0.28,0.2,1.14,23.7,0.78,20.5,37
62,1,0,0,32.065,2.7,1,0,207,1.18,0,0,1,2.06,1.03884,3.51009,0.572816,1.5,0.1,0.3,1.04,20.2,0.74,15.4,38
63,1,0,0,32.065,2.7,1,0,207,1.18,0,0,1,2.06,1.03884,3.51009,0.572816,1.5,0.3,0.3,0.9,19.3,0.67,11.5,38
64,1,0,0,32.065,2.7,1,0,207,1.18,0,0,1,2.06,1.03884,3.51009,0.572816,1.5,0.15,0.2,1.09,19.5,0.76,16.22,39
65,0,0,1,132.905,1.81,1,0,207,1.18,0,0,1,2.06,0.8446,4.33121,0.572816,1.73,0.18,0.27,1.08,18.41,0.793,15.71,40
66,1,0,0,32.065,2.7,1,0,207,1.18,0,0,1,2.06,1.03884,3.51009,0.572816,1.5,0.18,0.2,1,21.8,0.726,15.9,41
67,1,0,0,32.065,2.7,1,0,207,1.18,0,0,1,2.06,1.03884,3.51009,0.572816,1.5,0.18,0.2,1.029,21.08,0.745,16.11,42
68,1,0,0,32.065,2.7,1,0,207,1.18,0,0,1,2.06,1.03884,3.51009,0.572816,1.5,0.18,0.2,1.04,23,0.64,15.4,43
69,1,0,0,32.065,2.7,1,0,207,1.18,0,0,1,2.06,1.03884,3.51009,0.572816,1.5,0.15,0.2,1.08,21,0.786,17.8,44
70,1,0,0,32.065,2.7,1,0,207,1.18,0,0,1,2.06,1.03884,3.51009,0.572816,1.5,0.18,0.3,1.06,20.5,0.741,16.1,44
71,1,0,0,32.065,2.7,1,0,207,1.18,0,0,1,2.06,1.03884,3.51009,0.572816,1.5,0.2,0.3,0.98,19.1,0.78,14.7,45
72,1,0,0,32.065,2.7,1,0,207,1.18,0,0,1,2.06,1.03884,3.51009,0.572816,1.5,0.2,0.3,1.11,20.7,0.709,16.3,46
73,1,0,0,32.065,2.7,1,0,207,1.18,0,0,1,2.06,1.03884,3.51009,0.572816,1.5,0.2,0,1.039,20.71,0.704,15.15,47
74,1,0,0,32.065,2.7,1,0,207,1.18,0,0,1,2.06,1.03884,3.51009,0.572816,1.5,0.2,0.3,1.024,17.91,0.672,12.33,47
75,1,0,0,32.065,2.7,1,0,207,1.18,0,0,1,2.06,1.03884,3.51009,0.572816,1.5,0.2,0.3,1.07,20.58,0.748,16.47,48
76,1,0,0,32.065,2.7,1,0,207,1.18,0,0,1,2.06,1.03884,3.51009,0.572816,1.5,0.2,0.3,0.95,16.47,0.721,11.26,48
77,1,0,0,32.065,2.7,1,0,207,1.18,0,0,1,2.06,1.03884,3.51009,0.572816,1.5,0.18,0.2,1.075,21.88,0.769,18.08,49
78,1,0,0,32.065,2.7,1,0,207,1.18,0,0,1,2.06,1.03884,3.51009,0.572816,1.5,0.2,0.3,0.96,19.8,0.79,15.01,50
79,0.16,0.79,0.05,46.56488,2.7266,1,0,207,1.18,0.17,0,0.83,2.0192,1.04895,3.47007,0.58439,1.6,0.34,0.01,1.158,22.32,0.792,20.46,51
80,1,0,0,32.065,2.7,1,0,207,1.18,0,0,1,2.06,1.03884,3.51009,0.572816,1.5,0.4,0.1,0.95,21.03,0.755,15.1,52
81,1,0,0,32.065,2.7,1,0,207,1.18,0,0,1,2.06,1.03884,3.51009,0.572816,1.5,0.4,0,0.95,22.44,0.771,16.4,52
82,1,0,0,32.065,2.7,1,0,207,1.18,0,0,1,2.06,1.03884,3.51009,0.572816,1.5,0.4,0,0.92,21.73,0.758,15.2,52
83,1,0,0,32.065,2.7,1,0,207,1.18,0,0,1,2.06,1.03884,3.51009,0.572816,1.5,0.4,0.2,0.91,20.92,0.76,14.5,52
84,1,0,0,32.065,2.7,1,0,207,1.18,0,0,1,2.06,1.03884,3.51009,0.572816,1.5,0.18,0.33,1.05,20.7,0.7,15.3,53
85,1,0,0,32.065,2.7,1,0,207,1.18,0,0,1,2.06,1.03884,3.51009,0.572816,1.5,0.18,0.2,1.05,22.8,0.72,17.2,53
86,1,0,0,32.065,2.7,1,0,207,1.18,0,0,1,2.06,1.03884,3.51009,0.572816,1.5,0.18,0.3,1.04,19.1,0.68,13.5,53
87,1,0,0,32.065,2.7,1,0,207,1.18,0,0,1,2.06,1.03884,3.51009,0.572816,1.5,0.4,0.2,1.06,21.7,0.75,17.4,54
88,1,0,0,32.065,2.7,1,0,207,1.18,0,0,1,2.06,1.03884,3.51009,0.572816,1.5,0.15,0.2,1.05,22.7,0.8,19,54
89,1,0,0,32.065,2.7,1,0,207,1.18,0,0,1,2.06,1.03884,3.51009,0.572816,1.5,0,0.2,1.03,21.4,0.75,16.5,54
90,1,0,0,32.065,2.7,1,0,207,1.18,0,0,1,2.06,1.03884,3.51009,0.572816,1.5,0.2,0.2,1,20.1,0.8,16.1,54
91,1,0,0,32.065,2.7,1,0,207,1.18,0,0,1,2.06,1.03884,3.51009,0.572816,1.5,0.18,0.2,1.06,20.68,0.75,17.65,55
92,1,0,0,32.065,2.7,1,0,207,1.18,0,0,1,2.06,1.03884,3.51009,0.572816,1.5,0.18,0.32,1.1,22.03,0.785,19.2,56
93,1,0,0,32.065,2.7,1,0,207,1.18,0,0,1,2.06,1.03884,3.51009,0.572816,1.5,0.18,0.3,1.06,20.68,0.791,17.35,57
94,1,0,0,32.065,2.7,1,0,207,1.18,0,0,1,2.06,1.03884,3.51009,0.572816,1.5,0.18,0.11,0.99,20.18,0.72,14.38,57
95,1,0,0,32.065,2.7,1,0,207,1.18,0,0,1,2.06,1.03884,3.51009,0.572816,1.5,0.18,0.32,1.058,20.8,0.798,17.54,58
96,1,0,0,32.065,2.7,1,0,207,1.18,0,0,1,2.06,1.03884,3.51009,0.572816,1.5,0.18,0.38,1.021,21.64,0.679,15,59
97,0.15,0.85,0,42.2412,2.7765,1,0,207,1.18,0.15,0,0.85,2.024,1.05945,3.46508,0.583004,1.73,0.32,0.18,1.114,22.042,0.698,17.14,60
98,1,0,0,32.065,2.7,1,0,207,1.18,0,0,1,2.06,1.03884,3.51009,0.572816,1.5,0.18,0.2,1.105,21.06,0.74,17.24,60
99,0,1,0,44.037,2.79,1,0,207,1.18,0,0,1,2.06,1.05848,3.49339,0.572816,1.5,0.5,0.12,0.966,21.918,0.676,14.36,60
100,1,0,0,32.065,2.7,1,0,207,1.18,0,0.05,0.95,2.0475,1.04012,3.4995,0.576313,1.56,0.07,0.41,1.11,21.88,0.746,18.11,61
101,1,0,0,32.065,2.7,1,0,207,1.18,0,0.05,0.95,2.0475,1.04012,3.4995,0.576313,1.56,0.07,0.42,1.1,22.03,0.774,18.77,61
102,1,0,0,32.065,2.7,1,0,207,1.18,0,0.05,0.95,2.0475,1.04012,3.4995,0.576313,1.56,0.07,0.54,1.08,21.66,0.781,18.27,61
103,1,0,0,32.065,2.7,1,0,207,1.18,0,0.05,0.95,2.0475,1.04012,3.4995,0.576313,1.56,0.07,0.32,1.08,21.48,0.738,17.11,61
104,1,0,0,32.065,2.7,1,0,207,1.18,0,0.05,0.95,2.0475,1.04012,3.4995,0.576313,1.56,0.07,0.35,1.06,21.65,0.749,17.19,61
105,1,0,0,32.065,2.7,1,0,207,1.18,0,0.05,0.95,2.0475,1.04012,3.4995,0.576313,1.56,0.07,0.3,1.04,22,0.721,16.5,61
106,0,0,1,132.905,1.81,1,0,207,1.18,1,0,0,1.82,0.855599,4.12782,0.648352,2.3,0.6,0.8,1.24,7.4,0.73,6.7,62
107,1,0,0,32.065,2.7,1,0,207,1.18,0,0,1,2.06,1.03884,3.51009,0.572816,1.5,0.2,0.18,1.07,19.6,0.69,14.5,63
108,1,0,0,32.065,2.7,1,0,207,1.18,0,0,1,2.06,1.03884,3.51009,0.572816,1.5,0.2,0.18,1.04,18.4,0.72,13.6,63
109,1,0,0,32.065,2.7,1,0,207,1.18,0,0.05,0.95,2.0475,1.04012,3.4995,0.576313,1.5,0.16,0.22,0.938,19.58,0.726,13.34,64
110,1,0,0,32.065,2.7,1,0,207,1.18,0,0,1,2.06,1.03884,3.51009,0.572816,1.5,0.3,0.4,0.872,19.51,0.75,12.7,65
111,1,0,0,32.065,2.7,1,0,207,1.18,0,0,1,2.06,1.03884,3.51009,0.572816,1.5,0.3,0.18,1.045,20.3,0.677,14.4,66
112,1,0,0,32.065,2.7,1,0,207,1.18,0,0,1,2.06,1.03884,3.51009,0.572816,1.5,0.2,0.3,1.08,21.1,0.73,16.5,67
113,1,0,0,32.065,2.7,1,0,207,1.18,0,0,1,2.06,1.03884,3.51009,0.572816,1.5,0.15,0.2,0.98,21.7,0.712,15.2,68
114,1,0,0,32.065,2.7,1,0,207,1.18,0,0.05,0.95,2.0475,1.04012,3.4995,0.576313,1.63,0.21,0.25,1.136,21.36,0.78,18.89,69
115,1,0,0,32.065,2.7,1,0,207,1.18,0,0.05,0.95,2.0475,1.04012,3.4995,0.576313,1.63,0.21,0.15,1.036,19.1,0.77,15.15,69
116,1,0,0,32.065,2.7,1,0,207,1.18,0,0,1,2.06,1.03884,3.51009,0.572816,1.5,0.18,0.2,1.02,19.7,0.69,13.9,70
117,1,0,0,32.065,2.7,1,0,207,1.18,0,0,1,2.06,1.03884,3.51009,0.572816,1.5,0.35,0.2,0.924,18.6,0.48,8.3,70
118,1,0,0,32.065,2.7,1,0,207,1.18,0,0,1,2.06,1.03884,3.51009,0.572816,1.5,0.3,0.18,1.06,20.7,0.74,16.2,71
119,0.17,0.83,0,42.00176,2.7747,1,0,207,1.18,0.12,0,0.88,2.0312,1.05826,3.47149,0.580937,1.58,0.4,0.16,1.103,21.96,0.6274,15.2,72
120,0.15,0.75,0.1,51.128,2.6785,1,0,207,1.18,0.12,0,0.88,2.0312,1.03708,3.49041,0.580937,1.59,0.43,0.21,1.098,22.53,0.71,17.77,72
121,0.15,0.75,0.1,51.128,2.6785,1,0,207,1.18,0.12,0,0.88,2.0312,1.03708,3.49041,0.580937,1.59,0.43,0.14,1.097,23.21,0.74,18.99,72
122,0.15,0.75,0.1,51.128,2.6785,1,0,207,1.18,0.12,0,0.88,2.0312,1.03708,3.49041,0.580937,1.59,0.43,0.21,1.084,22.66,0.82,20.16,72
123,0.15,0.75,0.1,51.128,2.6785,1,0,207,1.18,0.12,0,0.88,2.0312,1.03708,3.49041,0.580937,1.59,0.43,0.31,1.033,20.35,0.68,14.33,72
124,1,0,0,32.065,2.7,1,0,207,1.18,0,0,1,2.06,1.03884,3.51009,0.572816,1.5,0.14,0.3,1.11,23.27,0.75,17.21,73
125,0.15,0.85,0,42.2412,2.7765,1,0,207,1.18,0.15,0,0.85,2.024,1.05945,3.46508,0.583004,1.73,0.43,0.18,1.129,23.6,0.779,20.75,74
126,1,0,0,32.065,2.7,1,0,207,1.18,0,0,1,2.06,1.03884,3.51009,0.572816,1.5,0.18,0.32,1.11,23.27,0.67,17.21,75
127,1,0,0,32.065,2.7,1,0,207,1.18,0,0,1,2.06,1.03884,3.51009,0.572816,1.5,0.23,0.3,1.07,20.37,0.78,17.02,76
128,1,0,0,32.065,2.7,1,0,207,1.18,0,0,1,2.06,1.03884,3.51009,0.572816,1.5,0.18,0.3,1.05,20.79,0.78,17.08,76
129,1,0,0,32.065,2.7,1,0,207,1.18,0,0,1,2.06,1.03884,3.51009,0.572816,1.5,0.4,0.3,1.02,21.87,0.75,16.8,76
130,1,0,0,32.065,2.7,1,0,207,1.18,0,0,1,2.06,1.03884,3.51009,0.572816,1.5,0.2,0.3,0.88,20.25,0.75,13.37,76
131,1,0,0,32.065,2.7,1,0,207,1.18,0,0,1,2.06,1.03884,3.51009,0.572816,1.5,0.18,0.2,1.071,21.3,0.84,19.1,77
132,0,1,0,44.037,2.79,1,0,207,1.18,0,0,1,2.06,1.05848,3.49339,0.572816,1.5,0.5,0.12,1,22.4,0.71,16,78
133,1,0,0,32.065,2.7,1,0,207,1.18,0,0,1,2.06,1.03884,3.51009,0.572816,1.5,0.1,0.32,1.09,20.9,0.72,16.5,79
134,1,0,0,32.065,2.7,1,0,207,1.18,0,0,1,2.06,1.03884,3.51009,0.572816,1.5,0.18,0.32,1.07,22.9,0.74,18.5,80
135,1,0,0,32.065,2.7,1,0,207,1.18,0,0,1,2.06,1.03884,3.51009,0.572816,1.5,0.3,0.2,1.02,22.3,0.71,16.2,81
136,0.15,0.85,0,42.2412,2.7765,1,0,207,1.18,0.15,0,0.85,2.024,1.05945,3.46508,0.583004,1.73,0.35,0.43,1.145,20.7,0.77,18.3,81
137,0.15,0.85,0,42.2412,2.7765,1,0,207,1.18,0.15,0,0.85,2.024,1.05945,3.46508,0.583004,1.73,0.39,0.43,1.133,20.4,0.72,16.8,81
138,0.15,0.85,0,42.2412,2.7765,1,0,207,1.18,0.15,0,0.85,2.024,1.05945,3.46508,0.583004,1.73,0.18,0.43,1.087,22.3,0.74,17.9,81
139,0.15,0.85,0,42.2412,2.7765,1,0,207,1.18,0.15,0,0.85,2.024,1.05945,3.46508,0.583004,1.73,0.47,0.43,0.99,16,0.57,9,81
140,0.15,0.85,0,42.2412,2.7765,1,0,207,1.18,0.15,0,0.85,2.024,1.05945,3.46508,0.583004,1.73,0.59,0.43,0.961,18.4,0.67,11.9,81
141,0.15,0.85,0,42.2412,2.7765,1,0,207,1.18,0.15,0,0.85,2.024,1.05945,3.46508,0.583004,1.6,0.28,0.2,1.123,22.89,0.756,19.43,82
142,1,0,0,32.065,2.7,1,0,207,1.18,0,0,1,2.06,1.03884,3.51009,0.572816,1.5,0.18,0.2,1.114,23.34,0.7731,20.1,83
143,1,0,0,32.065,2.7,1,0,207,1.18,0,0,1,2.06,1.03884,3.51009,0.572816,1.5,0.18,0.3,1.11,22.64,0.776,19.5,84
144,1,0,0,32.065,2.7,1,0,207,1.18,0,0,1,2.06,1.03884,3.51009,0.572816,1.5,0,0.3,1.11,21.23,0.81,19.14,85
145,1,0,0,32.065,2.7,1,0,207,1.18,0,0,1,2.06,1.03884,3.51009,0.572816,1.5,0.1,0.3,1.05,19.16,0.79,15.82,85
146,1,0,0,32.065,2.7,1,0,207,1.18,0,0,1,2.06,1.03884,3.51009,0.572816,1.5,-0.1,0.3,1.03,18.23,0.78,14.66,85
147,1,0,0,32.065,2.7,1,0,207,1.18,0,0,1,2.06,1.03884,3.51009,0.572816,1.5,0.2,0.3,1,18.85,0.79,14.83,85
148,1,0,0,32.065,2.7,1,0,207,1.18,0,0,1,2.06,1.03884,3.51009,0.572816,1.5,0.3,0.3,0.93,18.64,0.8,14.01,85
149,1,0,0,32.065,2.7,1,0,207,1.18,0,0,1,2.06,1.03884,3.51009,0.572816,1.5,0.4,0.3,0.87,18.31,0.79,12.68,85
150,1,0,0,32.065,2.7,1,0,207,1.18,0,0,1,2.06,1.03884,3.51009,0.572816,1.5,0.4,0.3,0.84,16.6,0.76,10.6,85
151,0.15,0.85,0,42.2412,2.7765,1,0,207,1.18,0.15,0,0.85,2.024,1.05945,3.46508,0.583004,1.73,0.35,0.18,1.13,21.71,0.77,18.9,86
152,0.15,0.85,0,42.2412,2.7765,1,0,207,1.18,0.15,0,0.85,2.024,1.05945,3.46508,0.583004,1.73,0.43,0.18,1.13,23.67,0.72,19.2,86
153,0.15,0.85,0,42.2412,2.7765,1,0,207,1.18,0.15,0,0.85,2.024,1.05945,3.46508,0.583004,1.73,0.27,0.18,1.09,20.85,0.77,17.5,86
154,0.15,0.85,0,42.2412,2.7765,1,0,207,1.18,0.15,0,0.85,2.024,1.05945,3.46508,0.583004,1.73,0.43,0.18,0.97,20.1,0.38,7.5,86
155,1,0,0,32.065,2.7,1,0,207,1.18,0,0.05,0.95,2.0475,1.04012,3.4995,0.576313,1.55,0.08,0.25,0.985,19.8,0.7358,14.35,87
156,0.5,0.5,0,38.051,2.745,1,0,207,1.18,0.5,0,0.5,1.94,1.06179,3.39944,0.608247,1.5,0.15,0.2,1.08,22.42,0.74,17.92,88
157,1,0,0,32.065,2.7,1,0,207,1.18,0,0,1,2.06,1.03884,3.51009,0.572816,1.5,0.15,0.2,1.02,21.44,0.77,17.05,88
158,1,0,0,32.065,2.7,1,0,207,1.18,0,0.05,0.95,2.0475,1.04012,3.4995,0.576313,1.56,0.11,0.25,0.91,19.07,0.72,12.61,89
159,1,0,0,32.065,2.7,0.5,0.5,162.855,1.185,0.2,0,0.8,2.012,1.04219,3.46469,0.588966,1.35,0.02,0.01,0.89,25.67,0.75,17.13,90
160,0.17,0.83,0,42.00176,2.7747,1,0,207,1.18,0.17,0,0.83,2.0192,1.05958,3.46132,0.58439,1.58,0.4,0.06,1.06,22.08,0.767,18,91
161,1,0,0,32.065,2.7,1,0,207,1.18,0,0,1,2.06,1.03884,3.51009,0.572816,1.5,0.1,0,1.04,21.3,0.772,17.1,92
162,0.15,0.85,0,42.2412,2.7765,1,0,207,1.18,0.15,0,0.85,2.024,1.05945,3.46508,0.583004,1.73,0.43,0.18,1.14,22.84,0.7579,19.81,93
163,0.15,0.85,0,42.2412,2.7765,1,0,207,1.18,0.15,0,0.85,2.024,1.05945,3.46508,0.583004,1.73,0.69,0.18,1.1,25.5,0.6985,19.68,93
164,0,0,1,132.905,1.81,1,0,207,1.18,0.33,0,0.67,1.9808,0.848045,4.26409,0.595719,1.92,0.83,0.05,1.23,15,0.785,14.6,94
165,0,0,1,132.905,1.81,1,0,207,1.18,0.33,0,0.67,1.9808,0.848045,4.26409,0.595719,1.92,0.83,0.27,1.06,14.7,0.757,11.9,94
166,1,0,0,32.065,2.7,1,0,207,1.18,0,0.05,0.95,2.0475,1.04012,3.4995,0.576313,1.6,0.1,0.3,1.05,17.62,0.601,12,95
167,0,1,0,44.037,2.79,0,1,118.71,1.19,0,0,1,2.06,1.05522,3.48261,0.57767,1.4,0.7,0.18,0.47,22.45,0.678,7.09,96
168,0,1,0,44.037,2.79,0,1,118.71,1.19,0,0,1,2.06,1.05522,3.48261,0.57767,1.4,0.7,0.16,0.44,22.34,0.673,6.56,96
169,0,1,0,44.037,2.79,0,1,118.71,1.19,0,0,1,2.06,1.05522,3.48261,0.57767,1.4,0.7,0.28,0.4,22.17,0.662,5.9,96
170,0,1,0,44.037,2.79,0,1,118.71,1.19,0,0,1,2.06,1.05522,3.48261,0.57767,1.4,0.7,0.36,0.36,21.96,0.674,5.29,96
171,0,1,0,44.037,2.79,0,1,118.71,1.19,0,0,1,2.06,1.05522,3.48261,0.57767,1.4,0.7,0.18,0.29,5.33,0.338,0.52,96
172,0,1,0,44.037,2.79,0,1,118.71,1.19,0,0,1,2.06,1.05522,3.48261,0.57767,1.4,0.7,0.3,0.15,2.62,0.278,0.11,96
173,0.14,0.81,0.05,46.80432,2.7284,1,0,207,1.18,0.15,0,0.85,2.024,1.04883,3.47379,0.583004,1.6,0.58,-0.1,1.09,22.62,0.779,19.2,97
174,0.16,0.79,0.05,46.56488,2.7266,1,0,207,1.18,0.16,0,0.84,2.0216,1.04869,3.4721,0.583696,1.69,0.45,0.21,1.08,22.5,0.809,19.7,98
175,1,0,0,32.065,2.7,1,0,207,1.18,0,0,1,2.06,1.03884,3.51009,0.572816,1.5,0.15,0.2,1.07,22.7,0.775,18.8,99
176,1,0,0,32.065,2.7,1,0,207,1.18,0,0,1,2.06,1.03884,3.51009,0.572816,1.5,0.2,0.2,1.05,22.6,0.734,17.5,99
177,1,0,0,32.065,2.7,1,0,207,1.18,0,0.05,0.95,2.0475,1.04012,3.4995,0.576313,1.55,0.06,0.37,1.06,20.7,0.75,16.3,100
178,0,1,0,44.037,2.79,1,0,207,1.18,0,0,1,2.06,1.05848,3.49339,0.572816,1.5,0.5,0.12,0.809,21.4,0.59,10.4,101
179,0.15,0.85,0,42.2412,2.7765,1,0,207,1.18,0.15,0,0.85,2.024,1.05945,3.46508,0.583004,1.73,0.43,0.18,1.16,23.18,0.79,21.31,102
180,1,0,0,32.065,2.7,1,0,207,1.18,0,0,1,2.06,1.03884,3.51009,0.572816,1.5,0.18,0.2,1.09,23.91,0.73,19.12,103
181,0.16,0.79,0.05,46.56488,2.7266,1,0,207,1.18,0.17,0,0.83,2.0192,1.04895,3.47007,0.58439,0.16,0.48,0,1.076,22.7,0.78,19,104
182,0.9,0,0.1,42.149,2.611,1,0,207,1.18,0,0,1,2.06,1.01941,3.53179,0.572816,1.54,0.49,0.05,1.05,10.1,0.73,7.68,105
183,0.8,0,0.2,52.233,2.522,1,0,207,1.18,0,0,1,2.06,0.999989,3.5597,0.572816,1.57,0.49,0.02,1.04,6.76,0.654,4.58,105
184,0.95,0,0.05,37.107,2.6555,1,0,207,1.18,0,0,1,2.06,1.02912,3.52023,0.572816,1.51,0.49,0.08,1.01,8.69,0.726,6.29,105
185,1,0,0,32.065,2.7,1,0,207,1.18,0,0,1,2.06,1.03884,3.51009,0.572816,1.5,0.4,0.2,1.07,23.44,0.6125,15.38,106
186,1,0,0,32.065,2.7,1,0,207,1.18,0,0,1,2.06,1.03884,3.51009,0.572816,1.5,0.4,0.2,1.02,21.88,0.5403,12.06,106
187,1,0,0,32.065,2.7,1,0,207,1.18,0,0,1,2.06,1.03884,3.51009,0.572816,1.5,0.1,0.3,1.08,22.47,0.81,19.66,106
188,1,0,0,32.065,2.7,1,0,207,1.18,0,0,1,2.06,1.03884,3.51009,0.572816,1.5,0.5,0.3,1,18.52,0.78,14.45,107
189,1,0,0,32.065,2.7,0.75,0.25,184.9275,1.1825,0,0,1,2.06,1.03803,3.50762,0.574029,1.38,0.04,0.32,0.82,22.44,0.78,14.35,107
190,1,0,0,32.065,2.7,0.5,0.5,162.855,1.185,0,0,1,2.06,1.03724,3.50519,0.575243,1.3,0.08,0.28,0.52,11.07,0.64,3.68,108
191,1,0,0,32.065,2.7,0.25,0.75,140.7825,1.1875,0,0,1,2.06,1.03644,3.50279,0.576456,1.27,0.24,0.41,0.36,11.12,0.59,2.36,108
192,1,0,0,32.065,2.7,0,1,118.71,1.19,0,0,1,2.06,1.03564,3.50042,0.57767,1.37,0.35,0.62,0.15,4.52,0.38,0.26,108
193,0,1,0,44.037,2.79,1,0,207,1.18,0,0,1,2.06,1.05848,3.49339,0.572816,1.5,0.5,0.12,1.05,23,0.721,17.4,109
194,0.13,0.74,0.1,50.04633,2.5966,1,0,207,1.18,0.13,0,0.83,1.9464,1.0275,3.43958,0.606247,1.6,0.5,0,1.153,22.18,0.733,18.76,110
195,0.13,0.74,0.1,50.04633,2.5966,1,0,207,1.18,0.13,0,0.83,1.9464,1.0275,3.43958,0.606247,1.6,0.48,0,1.097,22.59,0.758,18.77,110
196,0.13,0.74,0.1,50.04633,2.5966,1,0,207,1.18,0.13,0,0.83,1.9464,1.0275,3.43958,0.606247,1.6,0.43,0,1.025,20.16,0.801,16.54,110
197,0.13,0.74,0.1,50.04633,2.5966,1,0,207,1.18,0.13,0,0.83,1.9464,1.0275,3.43958,0.606247,1.6,0.47,0,0.994,22.68,0.625,14.09,110
198,0.13,0.74,0.1,50.04633,2.5966,1,0,207,1.18,0.13,0,0.83,1.9464,1.0275,3.43958,0.606247,1.6,0.5,0,0.975,10.92,0.66,7.03,110
199,0.13,0.74,0.1,50.04633,2.5966,1,0,207,1.18,0.13,0,0.83,1.9464,1.0275,3.43958,0.606247,1.6,0.38,0,0.972,8.67,0.727,6.12,110
200,0.13,0.74,0.1,50.04633,2.5966,1,0,207,1.18,0.13,0,0.83,1.9464,1.0275,3.43958,0.606247,1.6,0.22,0,0.843,4.11,0.616,2.13,110
201,1,0,0,32.065,2.7,1,0,207,1.18,0,0,1,2.06,1.03884,3.51009,0.572816,1.5,0.18,0,1.1,22.06,0.756,18.39,111
202,1,0,0,32.065,2.7,1,0,207,1.18,0,0,1,2.06,1.03884,3.51009,0.572816,1.5,0.18,0.3,1.05,19.17,0.607,12.27,111
203,0.16,0.79,0.05,46.56488,2.7266,1,0,207,1.18,0.17,0,0.83,2.0192,1.04895,3.47007,0.58439,1.6,0.23,0.14,1.18,21.8,0.77,20,112
204,0.16,0.79,0.05,46.56488,2.7266,1,0,207,1.18,0.17,0,0.83,2.0192,1.04895,3.47007,0.58439,1.6,0.34,0.14,1.15,21.4,0.72,17.8,112
205,1,0,0,32.065,2.7,1,0,207,1.18,0,0,1,2.06,1.03884,3.51009,0.572816,1.5,0.17,0.2,1.12,20.5,0.76,17.5,112
206,1,0,0,32.065,2.7,1,0,207,1.18,0,0,1,2.06,1.03884,3.51009,0.572816,1.5,0.18,0.2,1.07,20.5,0.74,16.5,112
207,0.16,0.79,0.05,46.56488,2.7266,1,0,207,1.18,0.17,0,0.83,2.0192,1.04895,3.47007,0.58439,1.6,0.45,0.14,1.121,21.34,0.714,17,25
208,0.16,0.79,0.05,46.56488,2.7266,1,0,207,1.18,0.17,0,0.83,2.0192,1.04895,3.47007,0.58439,1.6,0.41,0.14,1.089,22.38,0.725,17.6,25
209,0.135,0.765,0.1,51.30758,2.67985,1,0,207,1.18,0.15,0,0.85,2.024,1.03812,3.48401,0.583004,1.611,0.28,0.32,1.061,21.28,0.6955,15.71,113
210,0.14,0.81,0.05,46.80432,2.7284,1,0,207,1.18,0.15,0,0.85,2.024,1.04883,3.47379,0.583004,1.612,0.18,0.41,1.054,21.7,0.7548,17.1,113
211,0.15,0.85,0,42.2412,2.7765,1,0,207,1.18,0.15,0,0.85,2.024,1.05945,3.46508,0.583004,1.62,0.23,0.37,1.027,21.47,0.6916,15.24,113
212,0,0.9,0.1,52.9238,2.692,1,0,207,1.18,0,0,1,2.06,1.03709,3.51181,0.572816,1.55,0.16,0.37,1.02,20.03,0.71,14.49,114
213,1,0,0,32.065,2.7,1,0,207,1.18,0,0.05,0.95,2.0475,1.04012,3.4995,0.576313,1.55,0.01,0.25,1.11,21.66,0.77,18.51,115
214,1,0,0,32.065,2.7,1,0,207,1.18,0,0.05,0.95,2.0475,1.04012,3.4995,0.576313,1.55,0.08,0.25,1.08,21.45,0.74,17.14,115
215,1,0,0,32.065,2.7,1,0,207,1.18,0,0,1,2.06,1.03884,3.51009,0.572816,1.5,0.23,0.27,1.06,20.2,0.813,17.3,116
216,1,0,0,32.065,2.7,1,0,207,1.18,0,0,1,2.06,1.03884,3.51009,0.572816,1.5,0.3,0.1,1.12,21.8,0.77,18.8,117
217,0,1,0,44.037,2.79,0.5,0.5,162.855,1.185,0,0,1,2.06,1.05685,3.48794,0.575243,1.17,0.39,0.06,0.782,28.51,0.73,16.27,118
218,0,1,0,44.037,2.79,0.5,0.5,162.855,1.185,0,0,1,2.06,1.05685,3.48794,0.575243,1.17,0.5,0.06,0.61,27.79,0.68,11.6,118
219,1,0,0,32.065,2.7,1,0,207,1.18,0,0,1,2.06,1.03884,3.51009,0.572816,1.5,0.18,0.2,0.85,18.7,0.731,11.6,119
220,1,0,0,32.065,2.7,1,0,207,1.18,0,0,1,2.06,1.03884,3.51009,0.572816,1.5,0.17,0.37,1.09,20.94,0.754,17.21,120
221,1,0,0,32.065,2.7,1,0,207,1.18,0,0,1,2.06,1.03884,3.51009,0.572816,1.5,0.21,0.37,1.05,20.71,0.7664,16.67,120
222,1,0,0,32.065,2.7,1,0,207,1.18,0,0,1,2.06,1.03884,3.51009,0.572816,1.5,0.16,0.37,1.04,20.4,0.756,16.04,120
223,1,0,0,32.065,2.7,1,0,207,1.18,0,0,1,2.06,1.03884,3.51009,0.572816,1.5,0.18,0.2,1.07,21.37,0.768,17.6,121
224,1,0,0,32.065,2.7,1,0,207,1.18,0,0,1,2.06,1.03884,3.51009,0.572816,1.5,0.2,0.2,0.93,18.19,0.563,9.52,121
225,1,0,0,32.065,2.7,1,0,207,1.18,0,0.05,0.95,2.0475,1.04012,3.4995,0.576313,1.55,0.1,0.15,0.99,19.58,0.78,15.12,122
226,1,0,0,32.065,2.7,1,0,207,1.18,0,0,1,2.06,1.03884,3.51009,0.572816,1.5,0,0.3,1.048,20.03,0.591,12.43,123
227,0.15,0.85,0,42.2412,2.7765,1,0,207,1.18,0.15,0,0.85,2.024,1.05945,3.46508,0.583004,1.58,0.72,0.02,1.14,22.58,0.78,20.02,123
228,1,0,0,32.065,2.7,1,0,207,1.18,0,0,1,2.06,1.03884,3.51009,0.572816,1.5,0.2,0,1.11,20.53,0.5,11.7,125
229,1,0,0,32.065,2.7,1,0,207,1.18,0,0,1,2.06,1.03884,3.51009,0.572816,1.5,0.15,0.2,1.1,20.5,0.78,17.6,126
230,0.153,0.747,0.1,51.0921,2.67823,1,0,207,1.18,0.17,0,0.83,2.0192,1.03825,3.48031,0.58439,1.57,0.14,0.06,1.13,23.62,0.7666,20.47,127
231,0.153,0.747,0.1,51.0921,2.67823,1,0,207,1.18,0.17,0,0.83,2.0192,1.03825,3.48031,0.58439,1.57,0.14,0.06,1.13,23.62,0.7666,20.47,127
232,0.153,0.747,0.1,51.0921,2.67823,1,0,207,1.18,0.17,0,0.83,2.0192,1.03825,3.48031,0.58439,1.57,0.16,0.06,1.12,23.52,0.7601,20.02,127
233,0.153,0.747,0.1,51.0921,2.67823,1,0,207,1.18,0.17,0,0.83,2.0192,1.03825,3.48031,0.58439,1.57,0.16,0.06,1.12,23.15,0.7339,19.03,127
234,0.153,0.747,0.1,51.0921,2.67823,1,0,207,1.18,0.17,0,0.83,2.0192,1.03825,3.48031,0.58439,1.57,0.16,0.14,1.11,23.52,0.7506,19.6,127
235,0.153,0.747,0.1,51.0921,2.67823,1,0,207,1.18,0.17,0,0.83,2.0192,1.03825,3.48031,0.58439,1.57,0.16,0.5,1.09,22.8,0.7366,18.31,127
236,0.153,0.747,0.1,51.0921,2.67823,1,0,207,1.18,0.17,0,0.83,2.0192,1.03825,3.48031,0.58439,1.57,0.13,0.06,1.09,23.17,0.7431,18.77,127
237,0.153,0.747,0.1,51.0921,2.67823,1,0,207,1.18,0.17,0,0.83,2.0192,1.03825,3.48031,0.58439,1.57,0.15,0.06,1.09,23.16,0.7088,17.88,127
238,0.153,0.747,0.1,51.0921,2.67823,1,0,207,1.18,0.17,0,0.83,2.0192,1.03825,3.48031,0.58439,1.57,0.16,0.36,1.07,21.9,0.7138,16.76,127
239,0.153,0.747,0.1,51.0921,2.67823,1,0,207,1.18,0.17,0,0.83,2.0192,1.03825,3.48031,0.58439,1.57,0.16,0.57,1.06,22.44,0.704,16.71,127
240,0,0,1,132.905,1.81,1,0,207,1.18,0.33,0,0.67,1.9808,0.848045,4.26409,0.595719,1.82,0.64,0.44,1.3,13.13,0.704,12.02,128
241,1,0,0,32.065,2.7,1,0,207,1.18,0,0,1,2.06,1.03884,3.51009,0.572816,1.69,0.45,0.27,1.16,22.3,0.752,19.42,129
242,1,0,0,32.065,2.7,1,0,207,1.18,0,0,1,2.06,1.03884,3.51009,0.572816,1.69,0.45,0.64,1.1,22.1,0.742,18.04,129
243,1,0,0,32.065,2.7,1,0,207,1.18,0,0,1,2.06,1.03884,3.51009,0.572816,1.69,0.45,0.34,1.05,22.6,0.712,16.89,129
244,1,0,0,32.065,2.7,1,0,207,1.18,0,0,1,2.06,1.03884,3.51009,0.572816,1.69,0.45,0.21,1.03,21.7,0.738,16.49,129
245,1,0,0,32.065,2.7,1,0,207,1.18,0,0,1,2.06,1.03884,3.51009,0.572816,1.5,0.18,0.2,1.1,21.9,0.741,17.8,130
246,0.155,0.787,0.058,47.3357,2.71921,1,0,207,1.18,0.22,0,0.78,2.0072,1.04859,3.46137,0.587884,1.62,0.33,0.25,1.134,21.36,0.769,18.64,131
247,0.155,0.787,0.058,47.3357,2.71921,1,0,207,1.18,0.22,0,0.78,2.0072,1.04859,3.46137,0.587884,1.62,0.33,0.41,1.106,20.92,0.754,17.46,131
248,1,0,0,32.065,2.7,1,0,207,1.18,0,0,1,2.06,1.03884,3.51009,0.572816,1.5,0.2,0,1.122,22.6,0.757,19.19,132
249,1,0,0,32.065,2.7,1,0,207,1.18,0,0,1,2.06,1.03884,3.51009,0.572816,1.5,0.18,0.32,1.05,22.5,0.718,17.1,133
250,0.15,0.85,0,42.2412,2.7765,1,0,207,1.18,0.05,0,0.95,2.048,1.05683,3.48542,0.576172,1.6,0.28,0.2,1.1,20.7,0.706,16.1,134
251,0.7,0.3,0,35.6566,2.727,1,0,207,1.18,0,0,1,2.06,1.04473,3.50457,0.572816,1.57,0.2,0.27,1.113,21.3,0.771,18.28,135
252,0.7,0.3,0,35.6566,2.727,1,0,207,1.18,0,0,1,2.06,1.04473,3.50457,0.572816,1.57,0.196,0.27,1.085,22.29,0.791,19.13,135
253,0.7,0.3,0,35.6566,2.727,1,0,207,1.18,0,0,1,2.06,1.04473,3.50457,0.572816,1.57,0.201,0.27,1.082,22.51,0.815,19.85,135
254,0.7,0.3,0,35.6566,2.727,1,0,207,1.18,0,0,1,2.06,1.04473,3.50457,0.572816,1.57,0.19,0.27,1.079,22.2,0.781,18.71,135
255,0.7,0.3,0,35.6566,2.727,1,0,207,1.18,0,0,1,2.06,1.04473,3.50457,0.572816,1.57,0.184,0.27,1.073,22.03,0.778,18.39,135
256,0.7,0.3,0,35.6566,2.727,1,0,207,1.18,0,0,1,2.06,1.04473,3.50457,0.572816,1.57,0.212,0.27,1.072,22.3,0.807,19.29,135
257,0.7,0.3,0,35.6566,2.727,1,0,207,1.18,0,0,1,2.06,1.04473,3.50457,0.572816,1.57,0.134,0.27,1.065,21.88,0.744,17.33,135
258,0.7,0.3,0,35.6566,2.727,1,0,207,1.18,0,0,1,2.06,1.04473,3.50457,0.572816,1.57,0.105,0.27,1.058,21.73,0.724,16.65,135
259,0.7,0.3,0,35.6566,2.727,1,0,207,1.18,0,0,1,2.06,1.04473,3.50457,0.572816,1.57,0.067,0.27,1.052,21.96,0.702,16.21,135
260,0.7,0.3,0,35.6566,2.727,1,0,207,1.18,0,0,1,2.06,1.04473,3.50457,0.572816,1.57,0.23,0.27,1.044,21.66,0.81,18.32,135
261,1,0,0,32.065,2.7,1,0,207,1.18,0,0,1,2.06,1.03884,3.51009,0.572816,1.5,0.1,0.6,1.04,20.4,0.68,15.1,136
262,1,0,0,32.065,2.7,1,0,207,1.18,0,0,1,2.06,1.03884,3.51009,0.572816,1.55,0.42,0.17,1.061,20.7,0.647,14.2,137
263,1,0,0,32.065,2.7,1,0,207,1.18,0,0,1,2.06,1.03884,3.51009,0.572816,1.55,0.42,0.23,1.05,20.6,0.636,13.7,137
264,1,0,0,32.065,2.7,1,0,207,1.18,0,0,1,2.06,1.03884,3.51009,0.572816,1.55,0.42,0.08,1.044,21.6,0.691,15.6,137
265,1,0,0,32.065,2.7,1,0,207,1.18,0,0,1,2.06,1.03884,3.51009,0.572816,1.55,0.42,0.02,1.011,20.5,0.638,13.2,137
266,1,0,0,32.065,2.7,1,0,207,1.18,0,0,1,2.06,1.03884,3.51009,0.572816,1.55,0.42,0.04,0.985,19.9,0.573,11.2,137
267,0,0,1,132.905,1.81,1,0,207,1.18,0.67,0,0.33,1.8992,0.85178,4.19494,0.621314,2.08,0.78,0.06,1.09,7.76,0.6594,5.59,138
268,0,1,0,44.037,2.79,0,1,118.71,1.19,0,0,1,2.06,1.05522,3.48261,0.57767,1.4,0.7,0.4,0.39,22.12,0.57,4.92,139
269,1,0,0,32.065,2.7,1,0,207,1.18,0,0,1,2.06,1.03884,3.51009,0.572816,1.55,0.05,0.26,1.1,21.78,0.7763,18.67,140
270,1,0,0,32.065,2.7,1,0,207,1.18,0,0,1,2.06,1.03884,3.51009,0.572816,1.55,0.08,0.26,1.09,22.24,0.7891,18.81,140
271,1,0,0,32.065,2.7,1,0,207,1.18,0,0,1,2.06,1.03884,3.51009,0.572816,1.55,0.08,0.26,1.05,21.62,0.7234,16.43,140
272,1,0,0,32.065,2.7,1,0,207,1.18,0,0,1,2.06,1.03884,3.51009,0.572816,1.55,-0.1,0.26,1.02,21.29,0.6731,14.81,140
273,1,0,0,32.065,2.7,1,0,207,1.18,0,0.33,0.67,1.9775,1.0475,3.44017,0.596713,1.55,0.1,0.25,0.84,22.056,0.63155,11.7,141
274,1,0,0,32.065,2.7,1,0,207,1.18,0,0,0.95,1.957,1.04973,3.4228,0.602964,1.6,0.08,0.2,1.13,19,0.71,16,142
275,0.15,0.85,0,42.2412,2.7765,1,0,207,1.18,0.15,0,0.85,2.024,1.05945,3.46508,0.583004,1.6,0.32,0.1,1.145,23.12,0.64,16.9,143
276,0.15,0.85,0,42.2412,2.7765,1,0,207,1.18,0.15,0,0.85,2.024,1.05945,3.46508,0.583004,1.6,0.34,0.1,1.132,23.59,0.75,20.1,143
277,0.15,0.85,0,42.2412,2.7765,1,0,207,1.18,0.15,0,0.85,2.024,1.05945,3.46508,0.583004,1.6,0.39,0.1,1.13,23.87,0.76,20.6,143
278,0.7,0.3,0,35.6566,2.727,1,0,207,1.18,0,0.1,0.9,2.035,1.04735,3.48338,0.579853,1.5,0,0,1.1,18.55,0.5336,10.7,144
279,1,0,0,32.065,2.7,1,0,207,1.18,0,0,1,2.06,1.03884,3.51009,0.572816,1.5,0.2,0.3,1.01,19.74,0.734,14.64,145
280,0,0,1,132.905,1.81,1,0,207,1.18,0.67,0,0.33,1.8992,0.85178,4.19494,0.621314,2.08,0.8,0.08,0.85,10.56,0.62,5.52,146
281,1,0,0,32.065,2.7,1,0,207,1.18,0,0,1,2.06,1.03884,3.51009,0.572816,1.5,0.21,0.1,0.965,21.7,0.7,14.65,147
282,1,0,0,32.065,2.7,1,0,207,1.18,0,0,1,2.06,1.03884,3.51009,0.572816,1.5,0.21,0.03,0.9645,21.5,0.7,14.51,147
283,1,0,0,32.065,2.7,1,0,207,1.18,0,0,1,2.06,1.03884,3.51009,0.572816,1.5,0.21,0.47,0.955,20.5,0.65,12.77,147
284,1,0,0,32.065,2.7,1,0,207,1.18,0,0,1,2.06,1.03884,3.51009,0.572816,1.5,0.21,0.4,0.959,20.35,0.645,12.59,147
285,0.15,0.85,0,42.2412,2.7765,1,0,207,1.18,0.15,0,0.85,2.024,1.05945,3.46508,0.583004,1.6,0.43,0.15,1.13,23.52,0.76,20.2,148
286,0.15,0.85,0,42.2412,2.7765,1,0,207,1.18,0.15,0,0.85,2.024,1.05945,3.46508,0.583004,1.6,0.51,0.15,1.08,22.01,0.65,15.5,148
287,1,0,0,32.065,2.7,1,0,207,1.18,0,0.05,0.95,2.0475,1.04012,3.4995,0.576313,1.55,0.18,0.37,0.98,22.94,0.7,15.9,149
288,1,0,0,32.065,2.7,1,0,207,1.18,0,0.05,0.95,2.0475,1.04012,3.4995,0.576313,1.55,0.28,0.37,0.94,20.5,0.56,10.8,149
289,1,0,0,32.065,2.7,1,0,207,1.18,0,0,1,2.06,1.03884,3.51009,0.572816,1.5,0.2,0.1,1.1,22.3,0.77,18.9,150
290,1,0,0,32.065,2.7,1,0,207,1.18,0,0,1,2.06,1.03884,3.51009,0.572816,1.5,0.2,0.32,1.06,21.8,0.706,16.3,150
291,1,0,0,32.065,2.7,1,0,207,1.18,0,0,1,2.06,1.03884,3.51009,0.572816,1.5,0.35,0.3,1.11,22.7,0.78,19.54,151
292,1,0,0,32.065,2.7,1,0,207,1.18,0,0,1,2.06,1.03884,3.51009,0.572816,1.5,0.3,0.1,1.06,19.2,0.745,15.2,152
293,1,0,0,32.065,2.7,1,0,207,1.18,0,0.05,0.95,2.0475,1.04012,3.4995,0.576313,1.55,0.08,0.17,0.9,18.5,0.8,13.3,153
294,1,0,0,32.065,2.7,1,0,207,1.18,0,0,1,2.06,1.03884,3.51009,0.572816,1.5,0.22,0.3,1.07,20.15,0.77,16.6,154
295,1,0,0,32.065,2.7,1,0,207,1.18,0,0,1,2.06,1.03884,3.51009,0.572816,1.5,0.32,0.3,1,18.56,0.79,14.6,154
296,1,0,0,32.065,2.7,1,0,207,1.18,0,0.05,0.95,2.0475,1.04012,3.4995,0.576313,1.55,0.08,0.39,0.97,21.48,0.73,15.24,155
297,0.15,0.85,0,42.2412,2.7765,1,0,207,1.18,0.15,0,0.85,2.024,1.05945,3.46508,0.583004,1.58,0.06,0.3,1.14,23.4,0.823,22,156
298,0.15,0.85,0,42.2412,2.7765,1,0,207,1.18,0.15,0,0.85,2.024,1.05945,3.46508,0.583004,1.58,0.05,0.3,1.13,23.4,0.703,18.6,156
299,0.15,0.85,0,42.2412,2.7765,1,0,207,1.18,0.15,0,0.85,2.024,1.05945,3.46508,0.583004,1.58,0.44,0.3,1.1,23.4,0.827,21.3,156
300,1,0,0,32.065,2.7,1,0,207,1.18,0,0,1,2.06,1.03884,3.51009,0.572816,1.5,0.17,0.2,1.1,20.6,0.797,18.06,157
301,1,0,0,32.065,2.7,1,0,207,1.18,0,0,1,2.06,1.03884,3.51009,0.572816,1.5,0.16,0.2,1.07,19.1,0.787,16.08,157
302,1,0,0,32.065,2.7,1,0,207,1.18,0,0,1,2.06,1.03884,3.51009,0.572816,1.5,0.3,0.2,1.06,20.24,0.753,16.15,157
303,1,0,0,32.065,2.7,1,0,207,1.18,0,0,1,2.06,1.03884,3.51009,0.572816,1.5,0.44,0.2,0.77,11.28,0.577,5.01,157
304,1,0,0,32.065,2.7,1,0,207,1.18,0,0,1,2.06,1.03884,3.51009,0.572816,1.5,0.18,0.3,1.09,19.7,0.699,15,158
305,1,0,0,32.065,2.7,1,0,207,1.18,0,0.05,0.95,2.0475,1.04012,3.4995,0.576313,1.7,0.42,0.6,1.07,21.83,0.78,18.23,159
306,1,0,0,32.065,2.7,1,0,207,1.18,0,0,1,2.06,1.03884,3.51009,0.572816,1.5,0.15,0.1,1.12,22.28,0.812,20.26,160
307,1,0,0,32.065,2.7,1,0,207,1.18,0,0,1,2.06,1.03884,3.51009,0.572816,1.5,0.24,0.1,1.09,21.74,0.767,18.18,160
308,0.5,0.5,0,38.051,2.745,0.5,0.5,162.855,1.185,0,0,1,2.06,1.04704,3.49596,0.575243,1.25,0.2,0.15,0.75,30.36,0.76,17.59,161
309,0.5,0.5,0,38.051,2.745,0.5,0.5,162.855,1.185,0,0,1,2.06,1.04704,3.49596,0.575243,1.25,0.2,0.35,0.67,28.35,0.74,14.18,161
310,0.15,0.85,0,42.2412,2.7765,1,0,207,1.18,0.15,0,0.85,2.024,1.05945,3.46508,0.583004,1.5,0.2,0.2,1.13,22.92,0.7805,20.2,162
311,1,0,0,32.065,2.7,1,0,207,1.18,0,0,1,2.06,1.03884,3.51009,0.572816,1.5,0.65,0.32,1.05,20.6,0.69,14.6,163
312,0,0.98,0.02,45.81436,2.7704,1,0,207,1.18,0,0,1,2.06,1.0542,3.49662,0.572816,1.48,0.74,0,1.005,24.21,0.722,17.56,163
313,0,0.98,0.02,45.81436,2.7704,1,0,207,1.18,0,0,1,2.06,1.0542,3.49662,0.572816,1.48,0.95,0,0.985,23.35,0.688,15.83,163
314,0,0.98,0.02,45.81436,2.7704,1,0,207,1.18,0,0,1,2.06,1.0542,3.49662,0.572816,1.48,0.68,0,0.978,22.67,0.716,15.87,163
315,0.1615,0.7875,0.05,46.5029,2.723675,1,0,207,1.18,0.17,0,0.83,2.0192,1.0483,3.47065,0.58439,1.7,0.2,0.2,1.04,20.54,0.7,14.92,164
316,0.1615,0.7875,0.05,46.5029,2.723675,1,0,207,1.18,0.17,0,0.83,2.0192,1.0483,3.47065,0.58439,1.7,0.2,0.5,1.04,19.76,0.68,13.86,164
317,0.1235,0.8265,0.05,47.0019,2.729885,1,0,207,1.18,0.13,0,0.87,2.0288,1.04865,3.47756,0.581625,1.63,0.63,0.12,1.168,22.51,0.776,20.4,165
318,0.1235,0.8265,0.05,47.0019,2.729885,1,0,207,1.18,0.13,0,0.87,2.0288,1.04865,3.47756,0.581625,1.63,0.63,0.05,1.135,21.83,0.684,16.95,165
319,0.1235,0.8265,0.05,47.0019,2.729885,1,0,207,1.18,0.13,0,0.87,2.0288,1.04865,3.47756,0.581625,1.63,0.63,0.16,1.098,22.21,0.785,19.14,165
320,1,0,0,32.065,2.7,1,0,207,1.18,0,0.05,0.95,2.0475,1.04012,3.4995,0.576313,1.5,0.3,-0.3,0.96,21.1,0.78,15.8,166
321,1,0,0,32.065,2.7,1,0,207,1.18,0,0.05,0.95,2.0475,1.04012,3.4995,0.576313,1.5,0.3,0.1,0.94,19.6,0.77,14.2,166
322,1,0,0,32.065,2.7,1,0,207,1.18,0,0,1,2.06,1.03884,3.51009,0.572816,1.5,0.1,0.6,1,21.7,0.758,16.6,167
323,1,0,0,32.065,2.7,1,0,207,1.18,0,0,1,2.06,1.03884,3.51009,0.572816,1.59,0.18,0.11,1.07,19.3,0.76,15.7,168
324,1,0,0,32.065,2.7,1,0,207,1.18,0,0.05,0.95,2.0475,1.04012,3.4995,0.576313,1.61,0.16,0.35,0.89,20.3,0.62,11.2,168
325,1,0,0,32.065,2.7,1,0,207,1.18,0,0,1,2.06,1.03884,3.51009,0.572816,1.5,0.1,0.3,1.075,21.296,0.664,15.2,169
326,0,0,1,132.905,1.81,1,0,207,1.18,1,0,0,1.82,0.855599,4.12782,0.648352,2.4,0.8,0.5,0.859,8.55,0.57,4.21,170
327,1,0,0,32.065,2.7,1,0,207,1.18,0,0.05,0.95,2.0475,1.04012,3.4995,0.576313,1.6,0.3,0,0.98,22.61,0.77,17.06,171
328,1,0,0,32.065,2.7,1,0,207,1.18,0,0.05,0.95,2.0475,1.04012,3.4995,0.576313,1.6,0.2,0,0.91,19.61,0.71,12.67,171
329,1,0,0,32.065,2.7,1,0,207,1.18,0,0,1,2.06,1.03884,3.51009,0.572816,1.45,0.06,0.11,1.06,22.35,0.75,17.78,172
330,1,0,0,32.065,2.7,1,0,207,1.18,0,0,1,2.06,1.03884,3.51009,0.572816,1.45,0.06,0.35,1.04,20.15,0.72,15.09,172
331,0,0,1,132.905,1.81,1,0,207,1.18,0.33,0,0.67,1.9808,0.848045,4.26409,0.595719,1.92,0.86,0.06,1.23,16.79,0.7781,16.07,173
332,0,0,1,132.905,1.81,1,0,207,1.18,1,0,0,1.82,0.855599,4.12782,0.648352,2.3,0.4,0.8,1.27,6.97,0.785,6.95,174
333,0.17,0.83,0,42.00176,2.7747,1,0,207,1.18,0.17,0,0.83,2.0192,1.05958,3.46132,0.58439,1.56,0.63,0.02,1.12,21.06,0.704,16.6,175